Folder: sirionProbeCurrentProxy/dat/msa/Si-Cal-20kV

Note: README.md
# sirionProbeCurrentProxy
Use the X-ray EDS peak intensity from Si as a proxy for the electron probe current

File: Si-20kV-S4-P4-2K.msa
#FORMAT      : EMSA/MAS Spectral Data File
#VERSION     : 1.0
#TITLE       : Si-20kV-S4-P4-2K
#DATE        : 16-SEP-2016
#TIME        : 11:14
#OWNER       : John Minter
#NPOINTS     : 2048.0
#NCOLUMNS    : 1.0
#XUNITS      : keV
#YUNITS      : counts
#DATATYPE    : XY
#XPERCHAN    : 0.005
#OFFSET      : -0.1
#SIGNALTYPE  : EDS
#CHOFFSET    : 20.0
#LIVETIME    : 100.0
#REALTIME    : 117.332
#BEAMKV      : 20.0
#PROBECUR    : 0.40
#MAGCAM      : 35000.0
#XTILTSTGE   : 0.0
#AZIMANGLE   : 0.0
#ELEVANGLE   : 35.0
#XPOSITION mm: 1.6870
#YPOSITION mm: -1.7090
#ZPOSITION mm: 4.7660
##OXINSTPT   : 4
##OXINSTSTROB: 48.02
##OXINSTELEMS: 14,6,8
##OXINSTLABEL: 14, 1.740, Si
##OXINSTLABEL: 6, 0.277, C
##OXINSTLABEL: 8, 0.525, O
#SPECTRUM    : Spectral Data Starts Here
-0.10000, 0.0
-0.06500, 1.0
-0.03000, 232.0
0.00500, 1507.0
0.04000, 2158.0
0.07500, 905.0
0.11000, 512.0
0.14500, 109.0
0.18000, 55.0
0.21500, 53.0
0.25000, 118.0
0.28500, 137.0
0.32000, 56.0
0.35500, 61.0
0.39000, 64.0
0.42500, 97.0
0.46000, 133.0
0.49500, 180.0
0.53000, 187.0
0.56500, 168.0
0.60000, 167.0
0.63500, 227.0
0.67000, 260.0
0.70500, 289.0
0.74000, 306.0
0.77500, 349.0
0.81000, 389.0
0.84500, 383.0
0.88000, 418.0
0.91500, 474.0
0.95000, 488.0
0.98500, 504.0
1.02000, 529.0
1.05500, 504.0
1.09000, 541.0
1.12500, 544.0
1.16000, 567.0
1.19500, 613.0
1.23000, 602.0
1.26500, 589.0
1.30000, 606.0
1.33500, 642.0
1.37000, 602.0
1.40500, 649.0
1.44000, 696.0
1.47500, 795.0
1.51000, 829.0
1.54500, 878.0
1.58000, 901.0
1.61500, 944.0
1.65000, 3234.0
1.68500, 24271.0
1.72000, 78536.0
1.75500, 91429.0
1.79000, 39613.0
1.82500, 9714.0
1.86000, 3579.0
1.89500, 1163.0
1.93000, 269.0
1.96500, 146.0
2.00000, 142.0
2.03500, 136.0
2.07000, 152.0
2.10500, 153.0
2.14000, 139.0
2.17500, 137.0
2.21000, 139.0
2.24500, 156.0
2.28000, 165.0
2.31500, 126.0
2.35000, 150.0
2.38500, 150.0
2.42000, 186.0
2.45500, 160.0
2.49000, 179.0
2.52500, 164.0
2.56000, 163.0
2.59500, 179.0
2.63000, 183.0
2.66500, 178.0
2.70000, 175.0
2.73500, 192.0
2.77000, 183.0
2.80500, 175.0
2.84000, 185.0
2.87500, 175.0
2.91000, 178.0
2.94500, 192.0
2.98000, 195.0
3.01500, 166.0
3.05000, 185.0
3.08500, 183.0
3.12000, 166.0
3.15500, 167.0
3.19000, 177.0
3.22500, 179.0
3.26000, 180.0
3.29500, 184.0
3.33000, 176.0
3.36500, 188.0
3.40000, 240.0
3.43500, 439.0
3.47000, 664.0
3.50500, 655.0
3.54000, 437.0
3.57500, 263.0
3.61000, 201.0
3.64500, 176.0
3.68000, 174.0
3.71500, 165.0
3.75000, 158.0
3.78500, 173.0
3.82000, 170.0
3.85500, 159.0
3.89000, 162.0
3.92500, 153.0
3.96000, 163.0
3.99500, 141.0
4.03000, 151.0
4.06500, 153.0
4.10000, 153.0
4.13500, 135.0
4.17000, 154.0
4.20500, 130.0
4.24000, 144.0
4.27500, 136.0
4.31000, 142.0
4.34500, 139.0
4.38000, 145.0
4.41500, 134.0
4.45000, 140.0
4.48500, 135.0
4.52000, 136.0
4.55500, 141.0
4.59000, 139.0
4.62500, 130.0
4.66000, 130.0
4.69500, 145.0
4.73000, 130.0
4.76500, 121.0
4.80000, 148.0
4.83500, 126.0
4.87000, 99.0
4.90500, 128.0
4.94000, 120.0
4.97500, 121.0
5.01000, 143.0
5.04500, 128.0
5.08000, 135.0
5.11500, 118.0
5.15000, 122.0
5.18500, 122.0
5.22000, 99.0
5.25500, 123.0
5.29000, 105.0
5.32500, 111.0
5.36000, 127.0
5.39500, 105.0
5.43000, 121.0
5.46500, 129.0
5.50000, 108.0
5.53500, 92.0
5.57000, 99.0
5.60500, 104.0
5.64000, 97.0
5.67500, 115.0
5.71000, 110.0
5.74500, 109.0
5.78000, 101.0
5.81500, 99.0
5.85000, 83.0
5.88500, 92.0
5.92000, 114.0
5.95500, 94.0
5.99000, 89.0
6.02500, 81.0
6.06000, 83.0
6.09500, 94.0
6.13000, 85.0
6.16500, 82.0
6.20000, 73.0
6.23500, 87.0
6.27000, 89.0
6.30500, 86.0
6.34000, 112.0
6.37500, 91.0
6.41000, 96.0
6.44500, 95.0
6.48000, 79.0
6.51500, 100.0
6.55000, 77.0
6.58500, 83.0
6.62000, 91.0
6.65500, 63.0
6.69000, 71.0
6.72500, 68.0
6.76000, 87.0
6.79500, 92.0
6.83000, 69.0
6.86500, 72.0
6.90000, 87.0
6.93500, 88.0
6.97000, 92.0
7.00500, 71.0
7.04000, 74.0
7.07500, 86.0
7.11000, 72.0
7.14500, 76.0
7.18000, 62.0
7.21500, 70.0
7.25000, 78.0
7.28500, 57.0
7.32000, 72.0
7.35500, 74.0
7.39000, 66.0
7.42500, 79.0
7.46000, 69.0
7.49500, 76.0
7.53000, 64.0
7.56500, 60.0
7.60000, 62.0
7.63500, 70.0
7.67000, 67.0
7.70500, 64.0
7.74000, 62.0
7.77500, 66.0
7.81000, 66.0
7.84500, 56.0
7.88000, 64.0
7.91500, 63.0
7.95000, 69.0
7.98500, 65.0
8.02000, 59.0
8.05500, 57.0
8.09000, 70.0
8.12500, 56.0
8.16000, 49.0
8.19500, 53.0
8.23000, 58.0
8.26500, 46.0
8.30000, 62.0
8.33500, 58.0
8.37000, 63.0
8.40500, 54.0
8.44000, 59.0
8.47500, 57.0
8.51000, 66.0
8.54500, 66.0
8.58000, 55.0
8.61500, 53.0
8.65000, 57.0
8.68500, 54.0
8.72000, 48.0
8.75500, 41.0
8.79000, 55.0
8.82500, 41.0
8.86000, 51.0
8.89500, 62.0
8.93000, 50.0
8.96500, 50.0
9.00000, 51.0
9.03500, 50.0
9.07000, 52.0
9.10500, 57.0
9.14000, 39.0
9.17500, 46.0
9.21000, 47.0
9.24500, 50.0
9.28000, 46.0
9.31500, 41.0
9.35000, 37.0
9.38500, 40.0
9.42000, 45.0
9.45500, 43.0
9.49000, 46.0
9.52500, 43.0
9.56000, 46.0
9.59500, 49.0
9.63000, 42.0
9.66500, 43.0
9.70000, 40.0
9.73500, 41.0
9.77000, 40.0
9.80500, 37.0
9.84000, 30.0
9.87500, 29.0
9.91000, 38.0
9.94500, 34.0
9.98000, 36.0
10.01500, 31.0
10.05000, 38.0
10.08500, 41.0
10.12000, 41.0
10.13500, 37.0
#ENDOFDATA   :

File: Si-20kV-S4-P4-4K.msa
#FORMAT      : EMSA/MAS Spectral Data File
#VERSION     : 1.0
#TITLE       : Si-20kV-S4-P4-4K
#DATE        : 16-SEP-2016
#TIME        : 11:16
#OWNER       : John Minter
#NPOINTS     : 4096.0
#NCOLUMNS    : 1.0
#XUNITS      : keV
#YUNITS      : counts
#DATATYPE    : XY
#XPERCHAN    : 0.005
#OFFSET      : -0.2
#SIGNALTYPE  : EDS
#CHOFFSET    : 40.0
#LIVETIME    : 100.0
#REALTIME    : 117.29
#BEAMKV      : 20.0
#PROBECUR    : 0.40
#MAGCAM      : 35000.0
#XTILTSTGE   : 0.0
#AZIMANGLE   : 0.0
#ELEVANGLE   : 35.0
#XPOSITION mm: 1.6870
#YPOSITION mm: -1.6900
#ZPOSITION mm: 4.7660
##OXINSTPT   : 4
##OXINSTSTROB: 47.95
##OXINSTELEMS: 14,6
##OXINSTLABEL: 14, 1.740, Si
##OXINSTLABEL: 6, 0.277, C
#SPECTRUM    : Spectral Data Starts Here
-0.20000, 0.0
-0.13000, 0.0
-0.06000, 5.0
0.01000, 1611.0
0.08000, 797.0
0.15000, 87.0
0.22000, 68.0
0.29000, 128.0
0.36000, 72.0
0.43000, 107.0
0.50000, 162.0
0.57000, 159.0
0.64000, 209.0
0.71000, 286.0
0.78000, 323.0
0.85000, 423.0
0.92000, 458.0
0.99000, 494.0
1.06000, 554.0
1.13000, 547.0
1.20000, 554.0
1.27000, 602.0
1.34000, 629.0
1.41000, 671.0
1.48000, 765.0
1.55000, 917.0
1.62000, 995.0
1.69000, 30391.0
1.76000, 86290.0
1.83000, 8291.0
1.90000, 951.0
1.97000, 134.0
2.04000, 145.0
2.11000, 155.0
2.18000, 173.0
2.25000, 155.0
2.32000, 173.0
2.39000, 165.0
2.46000, 167.0
2.53000, 176.0
2.60000, 176.0
2.67000, 161.0
2.74000, 179.0
2.81000, 186.0
2.88000, 184.0
2.95000, 196.0
3.02000, 178.0
3.09000, 167.0
3.16000, 188.0
3.23000, 183.0
3.30000, 195.0
3.37000, 194.0
3.44000, 445.0
3.51000, 619.0
3.58000, 264.0
3.65000, 183.0
3.72000, 165.0
3.79000, 146.0
3.86000, 160.0
3.93000, 146.0
4.00000, 152.0
4.07000, 146.0
4.14000, 149.0
4.21000, 143.0
4.28000, 136.0
4.35000, 137.0
4.42000, 126.0
4.49000, 124.0
4.56000, 138.0
4.63000, 123.0
4.70000, 128.0
4.77000, 141.0
4.84000, 130.0
4.91000, 135.0
4.98000, 125.0
5.05000, 121.0
5.12000, 105.0
5.19000, 124.0
5.26000, 124.0
5.33000, 111.0
5.40000, 103.0
5.47000, 106.0
5.54000, 89.0
5.61000, 119.0
5.68000, 91.0
5.75000, 96.0
5.82000, 100.0
5.89000, 101.0
5.96000, 98.0
6.03000, 96.0
6.10000, 93.0
6.17000, 99.0
6.24000, 96.0
6.31000, 94.0
6.38000, 91.0
6.45000, 95.0
6.52000, 72.0
6.59000, 85.0
6.66000, 83.0
6.73000, 78.0
6.80000, 87.0
6.87000, 93.0
6.94000, 80.0
7.01000, 69.0
7.08000, 60.0
7.15000, 69.0
7.22000, 64.0
7.29000, 67.0
7.36000, 82.0
7.43000, 69.0
7.50000, 67.0
7.57000, 61.0
7.64000, 72.0
7.71000, 64.0
7.78000, 66.0
7.85000, 68.0
7.92000, 66.0
7.99000, 58.0
8.06000, 70.0
8.13000, 52.0
8.20000, 67.0
8.27000, 58.0
8.34000, 51.0
8.41000, 51.0
8.48000, 52.0
8.55000, 50.0
8.62000, 52.0
8.69000, 61.0
8.76000, 36.0
8.83000, 47.0
8.90000, 57.0
8.97000, 48.0
9.04000, 45.0
9.11000, 41.0
9.18000, 55.0
9.25000, 60.0
9.32000, 35.0
9.39000, 36.0
9.46000, 38.0
9.53000, 48.0
9.60000, 35.0
9.67000, 42.0
9.74000, 38.0
9.81000, 46.0
9.88000, 35.0
9.95000, 39.0
10.02000, 47.0
10.09000, 36.0
10.16000, 32.0
10.23000, 32.0
10.30000, 28.0
10.37000, 39.0
10.44000, 32.0
10.51000, 32.0
10.58000, 32.0
10.65000, 32.0
10.72000, 34.0
10.79000, 26.0
10.86000, 31.0
10.93000, 30.0
11.00000, 33.0
11.07000, 34.0
11.14000, 36.0
11.21000, 22.0
11.28000, 29.0
11.35000, 18.0
11.42000, 23.0
11.49000, 30.0
11.56000, 26.0
11.63000, 31.0
11.70000, 20.0
11.77000, 19.0
11.84000, 22.0
11.91000, 21.0
11.98000, 26.0
12.05000, 23.0
12.12000, 23.0
12.19000, 20.0
12.26000, 16.0
12.33000, 19.0
12.40000, 19.0
12.47000, 19.0
12.54000, 22.0
12.61000, 24.0
12.68000, 12.0
12.75000, 19.0
12.82000, 19.0
12.89000, 20.0
12.96000, 20.0
13.03000, 19.0
13.10000, 21.0
13.17000, 21.0
13.24000, 16.0
13.31000, 15.0
13.38000, 13.0
13.45000, 17.0
13.52000, 14.0
13.59000, 17.0
13.66000, 12.0
13.73000, 15.0
13.80000, 15.0
13.87000, 16.0
13.94000, 10.0
14.01000, 9.0
14.08000, 15.0
14.15000, 12.0
14.22000, 11.0
14.29000, 10.0
14.36000, 11.0
14.43000, 9.0
14.50000, 9.0
14.57000, 11.0
14.64000, 14.0
14.71000, 7.0
14.78000, 10.0
14.85000, 8.0
14.92000, 10.0
14.99000, 6.0
15.06000, 10.0
15.13000, 9.0
15.20000, 8.0
15.27000, 7.0
15.34000, 10.0
15.41000, 6.0
15.48000, 5.0
15.55000, 5.0
15.62000, 6.0
15.69000, 4.0
15.76000, 7.0
15.83000, 4.0
15.90000, 5.0
15.97000, 9.0
16.04000, 8.0
16.11000, 2.0
16.18000, 5.0
16.25000, 6.0
16.32000, 7.0
16.39000, 1.0
16.46000, 6.0
16.53000, 5.0
16.60000, 4.0
16.67000, 3.0
16.74000, 5.0
16.81000, 2.0
16.88000, 4.0
16.95000, 5.0
17.02000, 3.0
17.09000, 5.0
17.16000, 1.0
17.23000, 5.0
17.30000, 3.0
17.37000, 2.0
17.44000, 2.0
17.51000, 2.0
17.58000, 5.0
17.65000, 1.0
17.72000, 2.0
17.79000, 0.0
17.86000, 1.0
17.93000, 1.0
18.00000, 2.0
18.07000, 4.0
18.14000, 4.0
18.21000, 1.0
18.28000, 3.0
18.35000, 1.0
18.42000, 3.0
18.49000, 0.0
18.56000, 1.0
18.63000, 0.0
18.70000, 0.0
18.77000, 0.0
18.84000, 2.0
18.91000, 0.0
18.98000, 2.0
19.05000, 1.0
19.12000, 2.0
19.19000, 1.0
19.26000, 1.0
19.33000, 0.0
19.40000, 1.0
19.47000, 1.0
19.54000, 0.0
19.61000, 0.0
19.68000, 0.0
19.75000, 1.0
19.82000, 0.0
19.89000, 0.0
19.96000, 0.0
20.03000, 0.0
20.10000, 0.0
20.17000, 0.0
20.24000, 0.0
20.27500, 0.0
#ENDOFDATA   :

File: Si-20kV-S5-P4-2K.msa
#FORMAT      : EMSA/MAS Spectral Data File
#VERSION     : 1.0
#TITLE       : Si-20kV-S5-P4-2K
#DATE        : 16-SEP-2016
#TIME        : 11:21
#OWNER       : John Minter
#NPOINTS     : 2048.0
#NCOLUMNS    : 1.0
#XUNITS      : keV
#YUNITS      : counts
#DATATYPE    : XY
#XPERCHAN    : 0.005
#OFFSET      : -0.1
#SIGNALTYPE  : EDS
#CHOFFSET    : 20.0
#LIVETIME    : 100.0
#REALTIME    : 194.479
#BEAMKV      : 20.0
#PROBECUR    : 3.49
#MAGCAM      : 8000.0
#XTILTSTGE   : 0.0
#AZIMANGLE   : 0.0
#ELEVANGLE   : 35.0
#XPOSITION mm: 1.6240
#YPOSITION mm: -1.3010
#ZPOSITION mm: 4.7660
##OXINSTPT   : 4
##OXINSTSTROB: 48.08
##OXINSTELEMS: 14,6,8
##OXINSTLABEL: 14, 1.740, Si
##OXINSTLABEL: 6, 0.277, C
##OXINSTLABEL: 8, 0.525, O
#SPECTRUM    : Spectral Data Starts Here
-0.10000, 0.0
-0.06500, 2.0
-0.03000, 201.0
0.00500, 1387.0
0.04000, 1361.0
0.07500, 1142.0
0.11000, 1420.0
0.14500, 381.0
0.18000, 211.0
0.21500, 217.0
0.25000, 462.0
0.28500, 555.0
0.32000, 267.0
0.35500, 240.0
0.39000, 290.0
0.42500, 390.0
0.46000, 522.0
0.49500, 660.0
0.53000, 797.0
0.56500, 681.0
0.60000, 754.0
0.63500, 888.0
0.67000, 1075.0
0.70500, 1154.0
0.74000, 1335.0
0.77500, 1423.0
0.81000, 1549.0
0.84500, 1665.0
0.88000, 1828.0
0.91500, 1875.0
0.95000, 2004.0
0.98500, 2058.0
1.02000, 2138.0
1.05500, 2248.0
1.09000, 2210.0
1.12500, 2335.0
1.16000, 2360.0
1.19500, 2391.0
1.23000, 2483.0
1.26500, 2445.0
1.30000, 2533.0
1.33500, 2611.0
1.37000, 2617.0
1.40500, 2727.0
1.44000, 2973.0
1.47500, 3240.0
1.51000, 3570.0
1.54500, 3698.0
1.58000, 3839.0
1.61500, 4039.0
1.65000, 13732.0
1.68500, 100267.0
1.72000, 323674.0
1.75500, 377279.0
1.79000, 164334.0
1.82500, 40704.0
1.86000, 15233.0
1.89500, 4910.0
1.93000, 1241.0
1.96500, 654.0
2.00000, 653.0
2.03500, 619.0
2.07000, 659.0
2.10500, 638.0
2.14000, 634.0
2.17500, 659.0
2.21000, 694.0
2.24500, 680.0
2.28000, 700.0
2.31500, 700.0
2.35000, 739.0
2.38500, 749.0
2.42000, 733.0
2.45500, 766.0
2.49000, 793.0
2.52500, 772.0
2.56000, 792.0
2.59500, 826.0
2.63000, 856.0
2.66500, 855.0
2.70000, 889.0
2.73500, 839.0
2.77000, 873.0
2.80500, 857.0
2.84000, 888.0
2.87500, 884.0
2.91000, 878.0
2.94500, 862.0
2.98000, 896.0
3.01500, 895.0
3.05000, 904.0
3.08500, 887.0
3.12000, 916.0
3.15500, 871.0
3.19000, 900.0
3.22500, 934.0
3.26000, 933.0
3.29500, 899.0
3.33000, 963.0
3.36500, 1077.0
3.40000, 2228.0
3.43500, 5600.0
3.47000, 9267.0
3.50500, 9120.0
3.54000, 5505.0
3.57500, 2682.0
3.61000, 1494.0
3.64500, 972.0
3.68000, 787.0
3.71500, 720.0
3.75000, 703.0
3.78500, 683.0
3.82000, 684.0
3.85500, 639.0
3.89000, 704.0
3.92500, 699.0
3.96000, 685.0
3.99500, 683.0
4.03000, 699.0
4.06500, 649.0
4.10000, 644.0
4.13500, 671.0
4.17000, 687.0
4.20500, 658.0
4.24000, 642.0
4.27500, 628.0
4.31000, 650.0
4.34500, 650.0
4.38000, 645.0
4.41500, 627.0
4.45000, 605.0
4.48500, 602.0
4.52000, 601.0
4.55500, 611.0
4.59000, 630.0
4.62500, 597.0
4.66000, 595.0
4.69500, 603.0
4.73000, 575.0
4.76500, 568.0
4.80000, 555.0
4.83500, 586.0
4.87000, 565.0
4.90500, 569.0
4.94000, 569.0
4.97500, 571.0
5.01000, 568.0
5.04500, 537.0
5.08000, 588.0
5.11500, 543.0
5.15000, 592.0
5.18500, 682.0
5.22000, 766.0
5.25500, 716.0
5.29000, 629.0
5.32500, 573.0
5.36000, 553.0
5.39500, 517.0
5.43000, 525.0
5.46500, 484.0
5.50000, 477.0
5.53500, 514.0
5.57000, 492.0
5.60500, 479.0
5.64000, 483.0
5.67500, 472.0
5.71000, 493.0
5.74500, 459.0
5.78000, 464.0
5.81500, 479.0
5.85000, 442.0
5.88500, 453.0
5.92000, 465.0
5.95500, 434.0
5.99000, 455.0
6.02500, 411.0
6.06000, 429.0
6.09500, 383.0
6.13000, 427.0
6.16500, 449.0
6.20000, 401.0
6.23500, 385.0
6.27000, 400.0
6.30500, 450.0
6.34000, 388.0
6.37500, 408.0
6.41000, 398.0
6.44500, 387.0
6.48000, 414.0
6.51500, 410.0
6.55000, 365.0
6.58500, 385.0
6.62000, 398.0
6.65500, 360.0
6.69000, 378.0
6.72500, 351.0
6.76000, 368.0
6.79500, 342.0
6.83000, 386.0
6.86500, 346.0
6.90000, 333.0
6.93500, 346.0
6.97000, 344.0
7.00500, 367.0
7.04000, 339.0
7.07500, 323.0
7.11000, 333.0
7.14500, 321.0
7.18000, 345.0
7.21500, 338.0
7.25000, 327.0
7.28500, 313.0
7.32000, 307.0
7.35500, 310.0
7.39000, 324.0
7.42500, 315.0
7.46000, 309.0
7.49500, 327.0
7.53000, 315.0
7.56500, 309.0
7.60000, 325.0
7.63500, 314.0
7.67000, 295.0
7.70500, 309.0
7.74000, 290.0
7.77500, 310.0
7.81000, 297.0
7.84500, 291.0
7.88000, 295.0
7.91500, 258.0
7.95000, 287.0
7.98500, 290.0
8.02000, 253.0
8.05500, 258.0
8.09000, 279.0
8.12500, 303.0
8.16000, 249.0
8.19500, 273.0
8.23000, 249.0
8.26500, 269.0
8.30000, 273.0
8.33500, 280.0
8.37000, 232.0
8.40500, 268.0
8.44000, 252.0
8.47500, 253.0
8.51000, 254.0
8.54500, 241.0
8.58000, 228.0
8.61500, 241.0
8.65000, 239.0
8.68500, 241.0
8.72000, 228.0
8.75500, 233.0
8.79000, 242.0
8.82500, 228.0
8.86000, 230.0
8.89500, 224.0
8.93000, 228.0
8.96500, 227.0
9.00000, 233.0
9.03500, 234.0
9.07000, 213.0
9.10500, 214.0
9.14000, 220.0
9.17500, 210.0
9.21000, 201.0
9.24500, 203.0
9.28000, 226.0
9.31500, 199.0
9.35000, 225.0
9.38500, 197.0
9.42000, 199.0
9.45500, 202.0
9.49000, 196.0
9.52500, 202.0
9.56000, 193.0
9.59500, 203.0
9.63000, 178.0
9.66500, 193.0
9.70000, 171.0
9.73500, 180.0
9.77000, 186.0
9.80500, 177.0
9.84000, 187.0
9.87500, 186.0
9.91000, 176.0
9.94500, 172.0
9.98000, 174.0
10.01500, 178.0
10.05000, 173.0
10.08500, 155.0
10.12000, 174.0
10.13500, 177.0
#ENDOFDATA   :

File: Si-20kV-S5-P4-4K.msa
#FORMAT      : EMSA/MAS Spectral Data File
#VERSION     : 1.0
#TITLE       : Si-20kV-S5-P4-4K
#DATE        : 16-SEP-2016
#TIME        : 11:25
#OWNER       : John Minter
#NPOINTS     : 4096.0
#NCOLUMNS    : 1.0
#XUNITS      : keV
#YUNITS      : counts
#DATATYPE    : XY
#XPERCHAN    : 0.005
#OFFSET      : -0.2
#SIGNALTYPE  : EDS
#CHOFFSET    : 40.0
#LIVETIME    : 100.0
#REALTIME    : 194.339
#BEAMKV      : 20.0
#PROBECUR    : 3.49
#MAGCAM      : 8000.0
#XTILTSTGE   : 0.0
#AZIMANGLE   : 0.0
#ELEVANGLE   : 35.0
#XPOSITION mm: 1.6240
#YPOSITION mm: -1.3010
#ZPOSITION mm: 4.7660
##OXINSTPT   : 4
##OXINSTSTROB: 48.13
##OXINSTELEMS: 14,6
##OXINSTLABEL: 14, 1.740, Si
##OXINSTLABEL: 6, 0.277, C
#SPECTRUM    : Spectral Data Starts Here
-0.20000, 0.0
-0.13000, 0.0
-0.06000, 4.0
0.01000, 1407.0
0.08000, 1236.0
0.15000, 295.0
0.22000, 260.0
0.29000, 534.0
0.36000, 235.0
0.43000, 405.0
0.50000, 716.0
0.57000, 640.0
0.64000, 931.0
0.71000, 1136.0
0.78000, 1453.0
0.85000, 1730.0
0.92000, 1848.0
0.99000, 2065.0
1.06000, 2217.0
1.13000, 2264.0
1.20000, 2366.0
1.27000, 2459.0
1.34000, 2571.0
1.41000, 2818.0
1.48000, 3292.0
1.55000, 3874.0
1.62000, 4306.0
1.69000, 126215.0
1.76000, 355444.0
1.83000, 34138.0
1.90000, 4054.0
1.97000, 676.0
2.04000, 644.0
2.11000, 641.0
2.18000, 633.0
2.25000, 679.0
2.32000, 708.0
2.39000, 749.0
2.46000, 813.0
2.53000, 812.0
2.60000, 823.0
2.67000, 865.0
2.74000, 879.0
2.81000, 847.0
2.88000, 888.0
2.95000, 849.0
3.02000, 899.0
3.09000, 873.0
3.16000, 877.0
3.23000, 912.0
3.30000, 945.0
3.37000, 1219.0
3.44000, 6086.0
3.51000, 8727.0
3.58000, 2412.0
3.65000, 918.0
3.72000, 733.0
3.79000, 691.0
3.86000, 677.0
3.93000, 681.0
4.00000, 654.0
4.07000, 651.0
4.14000, 643.0
4.21000, 661.0
4.28000, 629.0
4.35000, 626.0
4.42000, 615.0
4.49000, 627.0
4.56000, 616.0
4.63000, 577.0
4.70000, 571.0
4.77000, 603.0
4.84000, 595.0
4.91000, 558.0
4.98000, 564.0
5.05000, 573.0
5.12000, 547.0
5.19000, 696.0
5.26000, 700.0
5.33000, 568.0
5.40000, 513.0
5.47000, 482.0
5.54000, 482.0
5.61000, 489.0
5.68000, 432.0
5.75000, 473.0
5.82000, 442.0
5.89000, 448.0
5.96000, 457.0
6.03000, 420.0
6.10000, 434.0
6.17000, 440.0
6.24000, 394.0
6.31000, 387.0
6.38000, 414.0
6.45000, 412.0
6.52000, 394.0
6.59000, 391.0
6.66000, 382.0
6.73000, 369.0
6.80000, 348.0
6.87000, 350.0
6.94000, 337.0
7.01000, 347.0
7.08000, 367.0
7.15000, 334.0
7.22000, 337.0
7.29000, 294.0
7.36000, 319.0
7.43000, 290.0
7.50000, 301.0
7.57000, 292.0
7.64000, 271.0
7.71000, 291.0
7.78000, 280.0
7.85000, 268.0
7.92000, 286.0
7.99000, 285.0
8.06000, 263.0
8.13000, 273.0
8.20000, 273.0
8.27000, 267.0
8.34000, 289.0
8.41000, 262.0
8.48000, 245.0
8.55000, 242.0
8.62000, 250.0
8.69000, 219.0
8.76000, 237.0
8.83000, 234.0
8.90000, 231.0
8.97000, 231.0
9.04000, 226.0
9.11000, 220.0
9.18000, 211.0
9.25000, 217.0
9.32000, 216.0
9.39000, 189.0
9.46000, 209.0
9.53000, 200.0
9.60000, 207.0
9.67000, 187.0
9.74000, 188.0
9.81000, 211.0
9.88000, 189.0
9.95000, 201.0
10.02000, 173.0
10.09000, 162.0
10.16000, 192.0
10.23000, 165.0
10.30000, 134.0
10.37000, 164.0
10.44000, 165.0
10.51000, 143.0
10.58000, 161.0
10.65000, 155.0
10.72000, 151.0
10.79000, 152.0
10.86000, 142.0
10.93000, 139.0
11.00000, 135.0
11.07000, 131.0
11.14000, 153.0
11.21000, 133.0
11.28000, 122.0
11.35000, 141.0
11.42000, 128.0
11.49000, 116.0
11.56000, 116.0
11.63000, 117.0
11.70000, 116.0
11.77000, 113.0
11.84000, 118.0
11.91000, 102.0
11.98000, 122.0
12.05000, 112.0
12.12000, 108.0
12.19000, 102.0
12.26000, 97.0
12.33000, 105.0
12.40000, 89.0
12.47000, 95.0
12.54000, 93.0
12.61000, 78.0
12.68000, 88.0
12.75000, 81.0
12.82000, 81.0
12.89000, 72.0
12.96000, 75.0
13.03000, 82.0
13.10000, 70.0
13.17000, 79.0
13.24000, 69.0
13.31000, 74.0
13.38000, 69.0
13.45000, 66.0
13.52000, 64.0
13.59000, 61.0
13.66000, 57.0
13.73000, 57.0
13.80000, 58.0
13.87000, 65.0
13.94000, 65.0
14.01000, 57.0
14.08000, 56.0
14.15000, 66.0
14.22000, 61.0
14.29000, 56.0
14.36000, 44.0
14.43000, 46.0
14.50000, 45.0
14.57000, 41.0
14.64000, 37.0
14.71000, 41.0
14.78000, 51.0
14.85000, 43.0
14.92000, 34.0
14.99000, 34.0
15.06000, 40.0
15.13000, 43.0
15.20000, 45.0
15.27000, 41.0
15.34000, 43.0
15.41000, 44.0
15.48000, 35.0
15.55000, 35.0
15.62000, 39.0
15.69000, 34.0
15.76000, 31.0
15.83000, 29.0
15.90000, 26.0
15.97000, 28.0
16.04000, 33.0
16.11000, 24.0
16.18000, 27.0
16.25000, 22.0
16.32000, 19.0
16.39000, 20.0
16.46000, 24.0
16.53000, 21.0
16.60000, 18.0
16.67000, 16.0
16.74000, 19.0
16.81000, 19.0
16.88000, 14.0
16.95000, 21.0
17.02000, 16.0
17.09000, 21.0
17.16000, 21.0
17.23000, 19.0
17.30000, 17.0
17.37000, 17.0
17.44000, 21.0
17.51000, 11.0
17.58000, 21.0
17.65000, 8.0
17.72000, 17.0
17.79000, 10.0
17.86000, 11.0
17.93000, 15.0
18.00000, 11.0
18.07000, 5.0
18.14000, 6.0
18.21000, 8.0
18.28000, 4.0
18.35000, 9.0
18.42000, 11.0
18.49000, 7.0
18.56000, 6.0
18.63000, 8.0
18.70000, 7.0
18.77000, 5.0
18.84000, 5.0
18.91000, 5.0
18.98000, 2.0
19.05000, 2.0
19.12000, 9.0
19.19000, 4.0
19.26000, 4.0
19.33000, 2.0
19.40000, 3.0
19.47000, 3.0
19.54000, 1.0
19.61000, 0.0
19.68000, 3.0
19.75000, 3.0
19.82000, 5.0
19.89000, 2.0
19.96000, 1.0
20.03000, 2.0
20.10000, 0.0
20.17000, 2.0
20.24000, 2.0
20.27500, 1.0
#ENDOFDATA   :